File: experimental_data/postmortem_data/nanoindentation/modulus_hardness_map.csv
X_Position_mm,Y_Position_mm,Material_Phase,Youngs_Modulus_GPa,Hardness_GPa,Creep_Compliance_1_per_GPa,Max_Load_mN,Max_Displacement_nm,Contact_Stiffness_mN_per_nm,Elastic_Work_pJ,Plastic_Work_pJ,Loading_Rate_mN_per_s,Hold_Time_s,Indentation_Depth_nm
0.0,0.0,Ni,106.663,1.87043,8.07944e-06,11.133,1.05435e+07,0.00105591,5.86908e+10,7.29966e+10,1.45522,10,1.05435e+07
0.0,0.555556,YSZ_in_anode,165.631,12.1023,5.66598e-06,9.36298,5.71029e+06,0.00163967,2.67327e+10,3.28068e+10,1.15644,10,5.71029e+06
0.0,1.11111,Ni,104.06,2.20561,8.3479e-06,10.4037,1.00993e+07,0.00103014,5.25349e+10,7.48213e+10,0.579379,10,1.00993e+07
0.0,1.66667,YSZ_in_anode,172.002,12.5501,6.60055e-06,9.23263,5.42224e+06,0.00170273,2.50308e+10,3.31334e+10,1.87921,10,5.42224e+06
0.0,2.22222,YSZ_electrolyte,186.314,13.2201,5.68626e-06,10.1485,5.50227e+06,0.00184442,2.79198e+10,4.56519e+10,1.5113,10,5.50227e+06
0.0,2.77778,YSZ_electrolyte,185.807,12.8539,4.41398e-06,11.7918,6.41071e+06,0.00183939,3.7797e+10,4.98521e+10,1.63016,10,6.41071e+06
0.0,3.33333,YSZ_in_cathode,198.669,10.9318,4.36871e-06,10.8554,5.51954e+06,0.00196672,2.99584e+10,3.61539e+10,1.53833,10,5.51954e+06
0.0,3.88889,LSM,103.649,6.71771,1.09209e-05,9.70362,9.45705e+06,0.00102607,4.58838e+10,7.18496e+10,1.4752,10,9.45705e+06
0.0,4.44444,YSZ_in_cathode,171.386,12.665,6.11605e-06,8.17624,4.8191e+06,0.00169663,1.97011e+10,3.30376e+10,0.5202,10,4.8191e+06
0.0,5.0,YSZ_in_cathode,164.971,9.86229,6.39487e-06,8.28069,5.07045e+06,0.00163313,2.09934e+10,3.4577e+10,1.94569,10,5.07045e+06
0.526316,0.0,YSZ_in_anode,176.971,13.9235,6.40253e-06,11.9274,6.8082e+06,0.00175192,4.06021e+10,6.9298e+10,1.57768,10,6.8082e+06
0.526316,0.555556,YSZ_in_anode,185.579,10.7585,4.95149e-06,9.24115,5.03019e+06,0.00183714,2.32424e+10,4.06095e+10,1.69451,10,5.03019e+06
0.526316,1.11111,YSZ_in_anode,194.326,12.9906,5.44734e-06,11.5785,6.01879e+06,0.00192373,3.48443e+10,4.41044e+10,1.06148,10,6.01879e+06
0.526316,1.66667,YSZ_in_anode,174.75,14.3774,6.05517e-06,10.3401,5.97719e+06,0.00172993,3.09025e+10,4.54466e+10,1.0262,10,5.97719e+06
0.526316,2.22222,YSZ_electrolyte,177.506,14.7024,6.63273e-06,10.1377,5.76917e+06,0.00175722,2.92431e+10,4.14657e+10,0.902726,10,5.76917e+06
0.526316,2.77778,YSZ_electrolyte,154.901,12.5702,5.26745e-06,9.20149,6.00055e+06,0.00153344,2.7607e+10,4.69082e+10,1.03537,10,6.00055e+06
0.526316,3.33333,YSZ_in_cathode,202.391,13.0278,4.36013e-06,10.6967,5.33881e+06,0.00200357,2.85538e+10,4.14418e+10,1.5653,10,5.33881e+06
0.526316,3.88889,LSM,88.8651,8.74258,1.30355e-05,8.10012,9.20762e+06,0.000879719,3.72914e+10,6.24588e+10,1.37204,10,9.20762e+06
0.526316,4.44444,LSM,92.3281,10.4871,1.0929e-05,10.5451,1.15373e+07,0.000914002,6.08315e+10,8.003e+10,1.62638,10,1.15373e+07
0.526316,5.0,YSZ_in_cathode,197.185,11.6706,6.03601e-06,10.5408,5.39994e+06,0.00195203,2.84599e+10,4.82261e+10,0.508036,10,5.39994e+06
1.05263,0.0,Ni,89.9086,2.31386,8.99202e-06,11.16,1.25387e+07,0.000890049,6.99661e+10,1.07477e+11,0.857661,10,1.25387e+07
1.05263,0.555556,YSZ_in_anode,194.898,13.1679,4.69059e-06,8.92541,4.62602e+06,0.00192939,2.06445e+10,3.51825e+10,1.0701,10,4.62602e+06
1.05263,1.11111,YSZ_in_anode,172.462,8.3739,5.01846e-06,11.4541,6.70893e+06,0.00170729,3.84223e+10,4.617e+10,1.81619,10,6.70893e+06
1.05263,1.66667,YSZ_in_anode,182.31,12.9624,4.90052e-06,9.05122,5.01515e+06,0.00180478,2.26966e+10,3.41535e+10,1.43867,10,5.01515e+06
1.05263,2.22222,YSZ_electrolyte,167.818,12.8436,5.09594e-06,9.72513,5.85388e+06,0.00166131,2.84649e+10,3.70672e+10,1.28537,10,5.85388e+06
1.05263,2.77778,YSZ_electrolyte,185.213,11.7281,5.92327e-06,8.73164,4.76223e+06,0.00183352,2.0791e+10,3.49921e+10,0.50773,10,4.76223e+06
1.05263,3.33333,LSM,103.634,9.78341,9.45368e-06,10.5426,1.02763e+07,0.00102592,5.41696e+10,6.75617e+10,1.28204,10,1.02763e+07
1.05263,3.88889,YSZ_in_cathode,170.793,11.423,5.76224e-06,9.24352,5.46705e+06,0.00169077,2.52674e+10,3.75849e+10,1.36272,10,5.46705e+06
1.05263,4.44444,LSM,89.2753,9.28444,9.39263e-06,11.4255,1.2928e+07,0.00088378,7.38548e+10,1.02573e+11,0.897185,10,1.2928e+07
1.05263,5.0,LSM,86.0287,10.3208,1.31524e-05,9.55437,1.12188e+07,0.000851641,5.35942e+10,73605701894.935,0.529197,10,1.12188e+07
1.57895,0.0,Ni,125.001,2.01573,7.91091e-06,8.7708,7.08781e+06,0.00123745,3.10829e+10,5.36247e+10,1.93525,10,7.08781e+06
1.57895,0.555556,YSZ_in_anode,173.801,12.6419,6.38354e-06,10.3331,6.00572e+06,0.00172055,3.10289e+10,4.08436e+10,1.38657,10,6.00572e+06
1.57895,1.11111,YSZ_in_anode,197.328,13.3158,4.55643e-06,11.3523,5.8114e+06,0.00195345,32986295315.298,4.16256e+10,1.66756,10,5.8114e+06
1.57895,1.66667,Ni,112.691,2.29628,8.10563e-06,10.1913,9.13538e+06,0.00111559,4.65508e+10,7.31204e+10,1.27428,10,9.13538e+06
1.57895,2.22222,YSZ_electrolyte,180.369,13.4667,5.83171e-06,9.00613,5.04387e+06,0.00178556,2.27129e+10,3.66946e+10,0.993702,10,5.04387e+06
1.57895,2.77778,YSZ_electrolyte,168.594,11.7907,6.13642e-06,9.25092,5.54282e+06,0.00166899,2.56381e+10,3.75401e+10,0.931042,10,5.54282e+06
1.57895,3.33333,YSZ_in_cathode,177.688,14.4053,5.58815e-06,10.9724,6.23777e+06,0.00175902,3.42217e+10,5.30897e+10,0.971213,10,6.23777e+06
1.57895,3.88889,LSM,100.568,8.31253,1.01928e-05,10.2539,1.02995e+07,0.000995576,5.28053e+10,8.41752e+10,1.32912,10,1.02995e+07
1.57895,4.44444,LSM,85.0481,9.66823,9.64845e-06,8.94208,1.06209e+07,0.000841934,4.74864e+10,8.2897e+10,0.565058,10,1.06209e+07
1.57895,5.0,LSM,85.0815,8.36406,1.05666e-05,8.63189,1.02484e+07,0.000842264,4.42317e+10,5.49198e+10,1.27829,10,1.02484e+07
2.10526,0.0,YSZ_in_anode,213.021,10.9038,5.1301e-06,9.98013,4.73261e+06,0.0021088,2.3616e+10,3.95299e+10,0.852059,10,4.73261e+06
2.10526,0.555556,Ni,108.963,2.29513,9.35393e-06,10.5656,9.79496e+06,0.00107868,5.1745e+10,8.7446e+10,1.58819,10,9.79496e+06
2.10526,1.11111,Ni,117.726,2.14055,8.43933e-06,11.0721,9.50044e+06,0.00116543,5.25947e+10,6.54324e+10,0.947748,10,9.50044e+06
2.10526,1.66667,YSZ_in_anode,201.106,10.6712,5.78971e-06,9.25105,4.6468e+06,0.00199084,2.14939e+10,3.59143e+10,1.73791,10,4.6468e+06
2.10526,2.22222,YSZ_electrolyte,175.125,14.2474,6.7147e-06,10.0801,5.81436e+06,0.00173365,2.93046e+10,4.10111e+10,0.784228,10,5.81436e+06
2.10526,2.77778,YSZ_electrolyte,186.659,12.6236,4.50067e-06,11.8881,6.43357e+06,0.00184783,3.82415e+10,6.38291e+10,0.631687,10,6.43357e+06
2.10526,3.33333,LSM,103.007,9.11229,9.84285e-06,9.65421,9.46755e+06,0.00101972,4.57008e+10,5.52905e+10,1.0625,10,9.46755e+06
2.10526,3.88889,LSM,89.4038,8.81368,1.2059e-05,8.15076,9.20935e+06,0.000885052,3.75316e+10,6.35864e+10,0.733838,10,9.20935e+06
2.10526,4.44444,LSM,97.804,8.29495,8.75624e-06,8.49666,8.77563e+06,0.00096821,3.72818e+10,5.08546e+10,0.675358,10,8.77563e+06
2.10526,5.0,YSZ_in_cathode,185.546,12.8782,5.64549e-06,10.0299,5.4605e+06,0.00183681,2.73841e+10,4.0704e+10,0.602463,10,5.4605e+06
2.63158,0.0,YSZ_in_anode,195.675,11.641,4.48474e-06,11.4161,5.89345e+06,0.00193708,3.36401e+10,5.57477e+10,1.94338,10,5.89345e+06
2.63158,0.555556,Ni,98.0268,2.38136,1.18108e-05,8.1661,8.41505e+06,0.000970416,3.43591e+10,5.88161e+10,0.841225,10,8.41505e+06
2.63158,1.11111,Ni,124.199,2.28303,8.20232e-06,10.2295,8.32003e+06,0.00122951,4.25551e+10,5.92891e+10,0.564443,10,8.32003e+06
2.63158,1.66667,Ni,99.6988,2.30607,9.99721e-06,8.87833,8.99556e+06,0.000986968,3.99327e+10,5.89722e+10,1.99278,10,8.99556e+06
2.63158,2.22222,YSZ_electrolyte,201.888,13.8574,5.66342e-06,10.0091,5.00806e+06,0.00199859,2.50631e+10,3.83679e+10,0.622653,10,5.00806e+06
2.63158,2.77778,YSZ_electrolyte,197.309,11.7741,4.19184e-06,11.2325,5.75062e+06,0.00195326,3.22969e+10,5.34369e+10,1.57111,10,5.75062e+06
2.63158,3.33333,LSM,99.8638,7.53556,1.05256e-05,11.5101,1.16428e+07,0.000988601,6.70044e+10,1.01634e+11,0.822028,10,1.16428e+07
2.63158,3.88889,YSZ_in_cathode,215.267,12.5989,5.56192e-06,10.9372,5.13235e+06,0.00213104,2.80668e+10,3.526e+10,1.45216,10,5.13235e+06
2.63158,4.44444,LSM,95.9362,10.5503,1.18598e-05,8.67782,9.13725e+06,0.000949719,3.96457e+10,6.97038e+10,1.30101,10,9.13725e+06
2.63158,5.0,LSM,93.9187,7.8764,9.27047e-06,9.72768,1.04627e+07,0.000929747,5.0889e+10,8.62427e+10,1.62647,10,1.04627e+07
3.15789,0.0,YSZ_in_anode,185.142,11.543,6.47579e-06,11.132,6.07374e+06,0.00183281,3.38065e+10,5.55647e+10,0.552437,10,6.07374e+06
3.15789,0.555556,Ni,109.317,1.85927,1.08099e-05,11.8452,1.09457e+07,0.00108218,6.4827e+10,8.20923e+10,1.256,10,1.09457e+07
3.15789,1.11111,YSZ_in_anode,188.212,12.6025,5.26032e-06,9.91552,5.32176e+06,0.0018632,2.6384e+10,4.3413e+10,1.93961,10,5.32176e+06
3.15789,1.66667,YSZ_in_anode,173.304,12.2754,5.68358e-06,11.1885,6.52156e+06,0.00171562,3.64834e+10,5.57184e+10,1.55359,10,6.52156e+06
3.15789,2.22222,YSZ_electrolyte,181.285,12.4809,6.12584e-06,10.6737,5.9476e+06,0.00179463,3.17416e+10,4.07274e+10,0.589518,10,5.9476e+06
3.15789,2.77778,YSZ_electrolyte,160.968,10.3414,6.81751e-06,10.0455,6.30407e+06,0.0015935,3.16638e+10,3.86546e+10,1.93627,10,6.30407e+06
3.15789,3.33333,LSM,84.3601,9.88568,1.39325e-05,10.1215,1.21198e+07,0.000835122,6.13349e+10,8.85939e+10,1.41508,10,1.21198e+07
3.15789,3.88889,LSM,94.6659,9.57993,8.93781e-06,10.3129,1.10046e+07,0.000937145,5.6745e+10,9.90116e+10,1.75354,10,1.10046e+07
3.15789,4.44444,LSM,92.6525,8.1004,1.18068e-05,9.05493,9.87222e+06,0.000917213,4.46961e+10,6.43259e+10,1.80741,10,9.87222e+06
3.15789,5.0,YSZ_in_cathode,168.133,14.4283,5.08188e-06,11.9915,7.20457e+06,0.00166443,4.31968e+10,5.83981e+10,0.630542,10,7.20457e+06
3.68421,0.0,YSZ_in_anode,180.202,12.8209,6.23693e-06,8.58756,4.8139e+06,0.00178391,2.06698e+10,3.08398e+10,1.3585,10,4.8139e+06
3.68421,0.555556,YSZ_in_anode,180.419,13.5881,5.61125e-06,10.7769,6.03394e+06,0.00178605,3.25137e+10,4.1739e+10,0.582427,10,6.03394e+06
3.68421,1.11111,Ni,90.5709,1.8937,1.24696e-05,11.8934,1.3265e+07,0.000896606,7.8883e+10,9.98606e+10,1.88454,10,1.3265e+07
3.68421,1.66667,Ni,98.8343,2.07352,8.9274e-06,8.59054,8.78011e+06,0.000978409,3.77129e+10,4.81824e+10,1.45378,10,8.78011e+06
3.68421,2.22222,YSZ_electrolyte,195.233,13.1542,4.26749e-06,8.72945,4.51669e+06,0.00193271,1.97141e+10,2.97972e+10,1.23,10,4.51669e+06
3.68421,2.77778,YSZ_electrolyte,198.26,12.3092,4.0962e-06,9.17247,4.67346e+06,0.00196267,2.14336e+10,3.03189e+10,0.828102,10,4.67346e+06
3.68421,3.33333,LSM,78.8033,8.90568,1.50709e-05,9.20857,1.18041e+07,0.000780113,5.43496e+10,7.55173e+10,0.965759,10,1.18041e+07
3.68421,3.88889,LSM,85.8769,8.31281,1.29134e-05,9.70543,1.14163e+07,0.000850138,5.54e+10,9.66138e+10,1.1492,10,1.14163e+07
3.68421,4.44444,LSM,92.5066,9.3285,1.21534e-05,9.90407,1.0815e+07,0.000915769,5.35564e+10,8.51163e+10,1.16887,10,1.0815e+07
3.68421,5.0,YSZ_in_cathode,188.288,12.57,4.51712e-06,9.31866,4.99941e+06,0.00186395,2.32939e+10,3.68995e+10,0.580095,10,4.99941e+06
4.21053,0.0,YSZ_in_anode,164.785,11.6128,5.49248e-06,8.92887,5.47353e+06,0.00163128,2.44362e+10,3.65872e+10,0.714399,10,5.47353e+06
4.21053,0.555556,YSZ_in_anode,211.644,12.7096,4.95211e-06,11.4711,5.47502e+06,0.00209517,3.14021e+10,4.81894e+10,1.77445,10,5.47502e+06
4.21053,1.11111,Ni,107.611,1.94788,7.90525e-06,9.78665,9.18677e+06,0.0010653,4.49538e+10,5.59516e+10,1.61573,10,9.18677e+06
4.21053,1.66667,YSZ_in_anode,177.442,12.2168,5.96677e-06,9.64726,5.49204e+06,0.00175659,2.64916e+10,3.53765e+10,1.2198,10,5.49204e+06
4.21053,2.22222,YSZ_electrolyte,162.887,12.0247,5.35534e-06,8.54175,5.2972e+06,0.0016125,2.26237e+10,4.0071e+10,0.938108,10,5.2972e+06
4.21053,2.77778,YSZ_electrolyte,157.173,11.8497,6.9261e-06,10.8657,6.98342e+06,0.00155593,3.794e+10,6.07422e+10,1.07654,10,6.98342e+06
4.21053,3.33333,LSM,98.2269,7.0251,1.17529e-05,11.3426,1.16645e+07,0.000972397,6.61528e+10,8.1745e+10,1.35392,10,1.16645e+07
4.21053,3.88889,LSM,97.8432,6.99031,9.87915e-06,11.0516,1.14099e+07,0.000968598,6.30488e+10,9.72816e+10,1.65832,10,1.14099e+07
4.21053,4.44444,LSM,84.4052,8.98814,1.11686e-05,10.8422,1.29758e+07,0.000835569,7.03434e+10,9.64044e+10,1.94025,10,1.29758e+07
4.21053,5.0,LSM,94.0135,8.99435,1.27514e-05,11.5874,1.24504e+07,0.000930686,7.21342e+10,9.86972e+10,1.36091,10,1.24504e+07
4.73684,0.0,Ni,112.935,2.33465,8.08569e-06,9.32223,8.33829e+06,0.001118,3.88657e+10,5.4877e+10,1.03396,10,8.33829e+06
4.73684,0.555556,YSZ_in_anode,179.535,11.5036,6.5115e-06,11.1001,6.24548e+06,0.00177731,3.46629e+10,6.15561e+10,1.71876,10,6.24548e+06
4.73684,1.11111,YSZ_in_anode,193.525,14.1905,4.48162e-06,9.82073,5.12618e+06,0.0019158,2.51714e+10,3.50979e+10,1.64895,10,5.12618e+06
4.73684,1.66667,YSZ_in_anode,192.925,13.5576,4.97706e-06,11.7359,6.14489e+06,0.00190986,3.60579e+10,4.82256e+10,1.32801,10,6.14489e+06
4.73684,2.22222,YSZ_electrolyte,201.383,11.3132,5.30818e-06,9.43664,4.73348e+06,0.00199359,2.23341e+10,3.41503e+10,1.36517,10,4.73348e+06
4.73684,2.77778,YSZ_electrolyte,176.016,10.8628,5.61806e-06,8.12597,4.66347e+06,0.00174247,1.89476e+10,2.53207e+10,1.35172,10,4.66347e+06
4.73684,3.33333,YSZ_in_cathode,181.696,12.1062,6.3317e-06,11.7805,6.54945e+06,0.0017987,3.8578e+10,4.65949e+10,0.808421,10,6.54945e+06
4.73684,3.88889,LSM,104.109,8.31973,9.20572e-06,9.59725,9.31209e+06,0.00103062,4.46852e+10,7.33841e+10,1.36797,10,9.31209e+06
4.73684,4.44444,LSM,97.0772,9.46766,9.26295e-06,8.23112,8.56503e+06,0.000961015,3.52499e+10,5.28982e+10,1.99186,10,8.56503e+06
4.73684,5.0,LSM,100.034,8.55058,1.10986e-05,11.7898,1.19054e+07,0.000990291,7.01808e+10,9.15031e+10,0.713984,10,1.19054e+07
5.26316,0.0,Ni,99.0696,2.13185,9.86311e-06,8.8499,9.02371e+06,0.000980739,3.99295e+10,5.31489e+10,1.13589,10,9.02371e+06
5.26316,0.555556,YSZ_in_anode,188.417,13.5411,5.63687e-06,9.36461,5.02062e+06,0.00186523,2.35081e+10,4.03927e+10,1.2745,10,5.02062e+06
5.26316,1.11111,Ni,119.187,2.07097,8.15069e-06,10.7712,9.12897e+06,0.00117989,4.91651e+10,6.02011e+10,0.804299,10,9.12897e+06
5.26316,1.66667,YSZ_in_anode,209.445,11.3901,4.67392e-06,11.5166,5.55447e+06,0.0020734,3.19844e+10,4.23277e+10,1.75139,10,5.55447e+06
5.26316,2.22222,YSZ_electrolyte,175.108,12.418,5.1141e-06,9.01806,5.20228e+06,0.00173348,2.34572e+10,3.14206e+10,0.791478,10,5.20228e+06
5.26316,2.77778,YSZ_electrolyte,196.449,13.596,5.65549e-06,10.2222,5.25631e+06,0.00194474,2.68654e+10,4.69426e+10,0.649706,10,5.25631e+06
5.26316,3.33333,LSM,96.1223,7.72263,1.1407e-05,9.5963,1.00848e+07,0.000951562,4.83883e+10,8.08506e+10,1.40809,10,1.00848e+07
5.26316,3.88889,YSZ_in_cathode,199.805,12.2054,5.82152e-06,8.45672,4.27547e+06,0.00197796,1.80782e+10,3.00462e+10,0.846983,10,4.27547e+06
5.26316,4.44444,YSZ_in_cathode,214.846,15.3088,4.15622e-06,10.7304,5.04518e+06,0.00212686,2.70685e+10,3.28517e+10,1.16642,10,5.04518e+06
5.26316,5.0,YSZ_in_cathode,179.222,13.039,5.93089e-06,10.2191,5.75979e+06,0.00177421,2.94298e+10,4.23484e+10,0.851048,10,5.75979e+06
5.78947,0.0,YSZ_in_anode,163.09,11.1537,6.38545e-06,11.4791,7.10996e+06,0.00161451,4.0808e+10,5.26972e+10,1.61516,10,7.10996e+06
5.78947,0.555556,Ni,99.0927,1.99686,9.5425e-06,10.2777,1.04771e+07,0.000980967,5.38407e+10,9.37435e+10,1.9741,10,1.04771e+07
5.78947,1.11111,Ni,110.922,2.13713,9.45464e-06,10.9078,9.93361e+06,0.00109807,5.4177e+10,8.74475e+10,1.16912,10,9.93361e+06
5.78947,1.66667,YSZ_in_anode,186.629,10.6589,5.53567e-06,8.32502,4.50602e+06,0.00184753,1.87564e+10,32247932182.639,1.61931,10,4.50602e+06
5.78947,2.22222,YSZ_electrolyte,195.055,9.75865,4.78148e-06,8.14878,4.2201e+06,0.00193095,1.71943e+10,2.87926e+10,1.96364,10,4.2201e+06
5.78947,2.77778,YSZ_electrolyte,171.749,13.4592,5.69164e-06,10.1446,5.96659e+06,0.00170023,3.02642e+10,4.71506e+10,0.852826,10,5.96659e+06
5.78947,3.33333,LSM,109.284,9.12147,9.12907e-06,9.528,8.80712e+06,0.00108185,4.19571e+10,6.05953e+10,0.764545,10,8.80712e+06
5.78947,3.88889,LSM,87.7209,7.84918,1.12577e-05,10.9825,1.26469e+07,0.000868393,6.94476e+10,9.65705e+10,1.29727,10,1.26469e+07
5.78947,4.44444,YSZ_in_cathode,182.491,13.5263,6.1777e-06,8.02274,4.44086e+06,0.00180657,1.78139e+10,2.53509e+10,1.82793,10,4.44086e+06
5.78947,5.0,YSZ_in_cathode,206.033,10.1193,5.75225e-06,10.3373,5.06825e+06,0.00203963,2.61961e+10,3.34647e+10,1.34298,10,5.06825e+06
6.31579,0.0,YSZ_in_anode,147.086,12.6123,6.97663e-06,11.724,8.05176e+06,0.00145608,4.71994e+10,6.34133e+10,1.97958,10,8.05176e+06
6.31579,0.555556,YSZ_in_anode,165.774,13.4725,7.21131e-06,9.41133,5.73485e+06,0.00164107,2.69863e+10,3.3012e+10,1.01859,10,5.73485e+06
6.31579,1.11111,YSZ_in_anode,190.482,14.0158,5.07505e-06,10.6631,5.65478e+06,0.00188568,3.01487e+10,4.38262e+10,0.971131,10,5.65478e+06
6.31579,1.66667,YSZ_in_anode,194.004,12.3617,4.27764e-06,11.5888,6.0341e+06,0.00192055,3.49639e+10,6.26292e+10,1.40624,10,6.0341e+06
6.31579,2.22222,YSZ_electrolyte,191.034,13.1128,5.47939e-06,10.277,5.43426e+06,0.00189114,2.79238e+10,3.76357e+10,1.73059,10,5.43426e+06
6.31579,2.77778,YSZ_electrolyte,203.253,14.0188,5.17238e-06,11.0891,5.5112e+06,0.0020121,3.05571e+10,5.09484e+10,0.778301,10,5.5112e+06
6.31579,3.33333,LSM,104.609,8.37088,8.21044e-06,8.50177,8.20971e+06,0.00103557,3.48986e+10,6.01912e+10,1.7026,10,8.20971e+06
6.31579,3.88889,YSZ_in_cathode,189.222,14.0358,5.06304e-06,10.2131,5.45222e+06,0.0018732,2.7842e+10,4.63372e+10,1.9096,10,5.45222e+06
6.31579,4.44444,LSM,80.9606,8.908,1.31335e-05,9.68809,1.20879e+07,0.000801469,5.85544e+10,7.79816e+10,0.869554,10,1.20879e+07
6.31579,5.0,YSZ_in_cathode,200.658,12.9814,5.68853e-06,8.05912,4.05713e+06,0.00198641,1.63484e+10,2.62265e+10,1.92487,10,4.05713e+06
6.84211,0.0,Ni,116.564,1.95811,1.01719e-05,8.53063,7.39268e+06,0.00115393,3.15321e+10,4.89032e+10,1.50041,10,7.39268e+06
6.84211,0.555556,YSZ_in_anode,144.992,12.0196,7.18305e-06,10.9591,7.63516e+06,0.00143535,4.18373e+10,5.97652e+10,1.4801,10,7.63516e+06
6.84211,1.11111,YSZ_in_anode,205.033,12.7882,5.0023e-06,11.3624,5.59801e+06,0.00202973,3.18035e+10,4.99608e+10,1.87815,10,5.59801e+06
6.84211,1.66667,YSZ_in_anode,187.246,14.7076,6.14454e-06,10.3436,5.58017e+06,0.00185364,2.88596e+10,4.01687e+10,1.9461,10,5.58017e+06
6.84211,2.22222,YSZ_electrolyte,183.117,13.0293,5.96158e-06,9.12161,5.03187e+06,0.00181277,2.29494e+10,4.10927e+10,1.03686,10,5.03187e+06
6.84211,2.77778,YSZ_electrolyte,163.067,12.4462,6.09506e-06,9.82873,6.08862e+06,0.00161428,2.99217e+10,5.2346e+10,1.10875,10,6.08862e+06
6.84211,3.33333,YSZ_in_cathode,176.537,12.3414,6.77567e-06,10.9122,6.244e+06,0.00174763,3.40679e+10,4.93061e+10,1.3414,10,6.244e+06
6.84211,3.88889,YSZ_in_cathode,178.095,16.3254,4.88009e-06,8.04803,4.56483e+06,0.00176305,1.83689e+10,2.71738e+10,0.995101,10,4.56483e+06
6.84211,4.44444,YSZ_in_cathode,182.518,12.8472,5.2036e-06,9.87897,5.46754e+06,0.00180684,2.70068e+10,3.41162e+10,1.69352,10,5.46754e+06
6.84211,5.0,LSM,106.68,8.40425,7.72722e-06,11.0647,1.04772e+07,0.00105607,5.79639e+10,8.3295e+10,0.816405,10,1.04772e+07
7.36842,0.0,YSZ_in_anode,199.65,11.8847,5.64557e-06,11.2836,5.70906e+06,0.00197643,3.22093e+10,4.39358e+10,1.16677,10,5.70906e+06
7.36842,0.555556,YSZ_in_anode,179.422,13.2,6.04576e-06,11.0482,6.22019e+06,0.00177619,34361009014.829,5.53477e+10,0.767629,10,6.22019e+06
7.36842,1.11111,Ni,105.343,1.84489,8.30211e-06,8.18,7.84397e+06,0.00104284,3.20818e+10,4.93243e+10,1.62823,10,7.84397e+06
7.36842,1.66667,YSZ_in_anode,193.827,12.9613,5.62623e-06,11.9801,6.24354e+06,0.00191879,3.7399e+10,60882625251.476,1.17158,10,6.24354e+06
7.36842,2.22222,YSZ_electrolyte,174.704,11.9206,5.70493e-06,8.38102,4.84598e+06,0.00172948,2.03071e+10,3.0471e+10,0.756276,10,4.84598e+06
7.36842,2.77778,YSZ_electrolyte,209.001,13.4342,4.2562e-06,10.7574,5.19931e+06,0.00206901,2.79655e+10,4.5092e+10,1.70318,10,5.19931e+06
7.36842,3.33333,YSZ_in_cathode,206.212,12.756,4.09263e-06,8.23254,4.03281e+06,0.00204139,1.66001e+10,2.55696e+10,1.69626,10,4.03281e+06
7.36842,3.88889,LSM,83.8236,8.84918,1.2243e-05,8.8148,1.06226e+07,0.000829812,4.68182e+10,7.62776e+10,0.960764,10,1.06226e+07
7.36842,4.44444,YSZ_in_cathode,188.505,13.128,4.78974e-06,11.4803,6.15199e+06,0.00186611,3.53133e+10,5.92142e+10,0.861146,10,6.15199e+06
7.36842,5.0,YSZ_in_cathode,201.952,11.5107,5.06531e-06,8.01619,4.00965e+06,0.00199922,1.6071e+10,2.08705e+10,1.27113,10,4.00965e+06
7.89474,0.0,Ni,106.578,1.87464,9.51485e-06,11.8808,1.12606e+07,0.00105507,6.68925e+10,1.13184e+11,0.581985,10,1.12606e+07
7.89474,0.555556,YSZ_in_anode,167.975,11.1426,5.53398e-06,11.2936,6.79167e+06,0.00166287,38351298225.541,5.91886e+10,0.526355,10,6.79167e+06
7.89474,1.11111,Ni,102.377,2.29222,1.16929e-05,11.0833,1.09359e+07,0.00101348,6.06031e+10,9.25453e+10,0.891349,10,1.09359e+07
7.89474,1.66667,YSZ_in_anode,202.848,12.1917,4.89678e-06,11.3974,5.67574e+06,0.00200809,3.23444e+10,3.93313e+10,1.77409,10,5.67574e+06
7.89474,2.22222,YSZ_electrolyte,180.731,12.2286,6.43468e-06,11.3652,6.3523e+06,0.00178915,3.60976e+10,4.6075e+10,1.99794,10,6.3523e+06
7.89474,2.77778,YSZ_electrolyte,188.213,12.6691,4.92816e-06,11.6243,6.23886e+06,0.00186322,3.62613e+10,5.81424e+10,1.21535,10,6.23886e+06
7.89474,3.33333,LSM,93.499,9.63058,9.05065e-06,11.5826,1.25137e+07,0.000925593,7.24705e+10,9.83653e+10,0.563129,10,1.25137e+07
7.89474,3.88889,YSZ_in_cathode,158.209,10.8573,6.67163e-06,8.34444,5.32786e+06,0.00156619,2.2229e+10,2.78672e+10,1.10174,10,5.32786e+06
7.89474,4.44444,LSM,109.525,9.23061,1.01997e-05,11.3163,1.0437e+07,0.00108424,5.90541e+10,9.62405e+10,0.933619,10,1.0437e+07
7.89474,5.0,YSZ_in_cathode,171.574,13.39,5.48621e-06,9.69196,5.7062e+06,0.0016985,2.76521e+10,4.97316e+10,0.549439,10,5.7062e+06
8.42105,0.0,YSZ_in_anode,156.153,12.62,5.84954e-06,9.58045,6.19758e+06,0.00154584,2.96878e+10,5.22488e+10,1.08194,10,6.19758e+06
8.42105,0.555556,YSZ_in_anode,190.356,12.5252,5.12126e-06,11.8269,6.27611e+06,0.00188443,3.71134e+10,4.92905e+10,1.36602,10,6.27611e+06
8.42105,1.11111,YSZ_in_anode,194.406,12.8587,6.14707e-06,9.34586,4.85619e+06,0.00192452,2.26927e+10,3.03098e+10,0.822577,10,4.85619e+06
8.42105,1.66667,YSZ_in_anode,200.676,10.3591,5.85479e-06,11.4997,5.78864e+06,0.00198659,3.32837e+10,4.88253e+10,1.01186,10,5.78864e+06
8.42105,2.22222,YSZ_electrolyte,174.349,14.1836,6.7588e-06,9.57009,5.54477e+06,0.00172597,2.6532e+10,4.40871e+10,0.579088,10,5.54477e+06
8.42105,2.77778,YSZ_electrolyte,213.667,12.9977,5.01379e-06,8.9142,4.21437e+06,0.00211519,1.87839e+10,2.67797e+10,1.34934,10,4.21437e+06
8.42105,3.33333,LSM,100.363,10.4047,9.20426e-06,9.85478,9.91884e+06,0.000993542,4.8874e+10,7.0708e+10,1.7307,10,9.91884e+06
8.42105,3.88889,LSM,81.2402,8.17916,1.26235e-05,10.6404,1.32304e+07,0.000804237,7.03879e+10,1.11804e+11,1.21413,10,1.32304e+07
8.42105,4.44444,YSZ_in_cathode,183.773,12.0575,4.69618e-06,11.5925,6.3721e+06,0.00181926,3.69344e+10,6.64485e+10,1.39482,10,6.3721e+06
8.42105,5.0,LSM,89.9823,9.06551,1.2926e-05,11.3001,1.26857e+07,0.000890779,7.16747e+10,1.00633e+11,1.87852,10,1.26857e+07
8.94737,0.0,YSZ_in_anode,172.191,10.5519,6.7134e-06,8.85794,5.19648e+06,0.0017046,2.30151e+10,4.11222e+10,1.03588,10,5.19648e+06
8.94737,0.555556,Ni,107.192,1.8388,1.11027e-05,9.7071,9.14774e+06,0.00106115,4.4399e+10,6.88049e+10,1.63771,10,9.14774e+06
8.94737,1.11111,YSZ_in_anode,175.387,11.5396,5.58958e-06,9.8064,5.64807e+06,0.00173624,2.76936e+10,4.59845e+10,1.24321,10,5.64807e+06
8.94737,1.66667,YSZ_in_anode,183.561,12.3212,5.15121e-06,11.943,6.57234e+06,0.00181716,3.92467e+10,6.87693e+10,1.4075,10,6.57234e+06
8.94737,2.22222,YSZ_electrolyte,159.021,10.9503,5.41481e-06,8.66638,5.50515e+06,0.00157423,2.38549e+10,3.62086e+10,0.744937,10,5.50515e+06
8.94737,2.77778,YSZ_electrolyte,175.201,13.4446,6.32221e-06,8.98794,5.18216e+06,0.0017344,2.32885e+10,3.42997e+10,0.865643,10,5.18216e+06
8.94737,3.33333,YSZ_in_cathode,183.403,11.7144,5.26789e-06,11.5735,6.3745e+06,0.0018156,3.68877e+10,6.44779e+10,1.86369,10,6.3745e+06
8.94737,3.88889,YSZ_in_cathode,209.686,12.4245,4.21592e-06,8.25759,3.97805e+06,0.00207579,1.64246e+10,2.85538e+10,1.27786,10,3.97805e+06
8.94737,4.44444,LSM,89.285,8.2209,1.08507e-05,11.9089,1.34735e+07,0.000883877,8.02275e+10,1.15932e+11,1.81181,10,1.34735e+07
8.94737,5.0,LSM,93.0296,9.21411,1.28754e-05,10.4499,1.13469e+07,0.000920946,5.9287e+10,1.02176e+11,1.8936,10,1.13469e+07
9.47368,0.0,Ni,114.029,2.1534,7.46639e-06,10.0529,8.90556e+06,0.00112883,4.47634e+10,7.96243e+10,1.59005,10,8.90556e+06
9.47368,0.555556,YSZ_in_anode,190.323,12.7258,6.20068e-06,11.6241,6.16958e+06,0.0018841,3.58579e+10,5.33486e+10,1.88278,10,6.16958e+06
9.47368,1.11111,YSZ_in_anode,199.632,12.0054,4.20997e-06,8.524,4.31321e+06,0.00197625,1.83829e+10,2.5516e+10,1.69166,10,4.31321e+06
9.47368,1.66667,YSZ_in_anode,190.36,11.3621,5.85175e-06,11.3317,6.0132e+06,0.00188447,3.40699e+10,4.60188e+10,1.68439,10,6.0132e+06
9.47368,2.22222,YSZ_electrolyte,186.713,10.334,6.16245e-06,10.1394,5.4856e+06,0.00184836,2.78103e+10,3.36811e+10,1.30868,10,5.4856e+06
9.47368,2.77778,YSZ_electrolyte,196.262,12.6531,5.83868e-06,8.42707,4.33738e+06,0.00194289,1.82757e+10,3.23875e+10,0.745928,10,4.33738e+06
9.47368,3.33333,YSZ_in_cathode,178.784,12.4721,5.20449e-06,8.07779,4.56406e+06,0.00176987,1.84338e+10,3.19935e+10,1.43156,10,4.56406e+06
9.47368,3.88889,YSZ_in_cathode,186.764,10.9852,5.25297e-06,10.2695,5.55448e+06,0.00184887,2.85209e+10,4.08607e+10,1.25974,10,5.55448e+06
9.47368,4.44444,YSZ_in_cathode,189.475,12.8627,5.74441e-06,9.09385,4.84823e+06,0.0018757,2.20445e+10,2.64924e+10,0.771655,10,4.84823e+06
9.47368,5.0,LSM,100.65,8.2249,7.97535e-06,8.39612,8.4266e+06,0.000996383,3.53754e+10,6.26559e+10,0.889784,10,8.4266e+06
10.0,0.0,YSZ_in_anode,216.548,11.2292,5.19523e-06,11.6641,5.44104e+06,0.00214372,3.17323e+10,3.83047e+10,0.794459,10,5.44104e+06
10.0,0.555556,Ni,88.9627,2.10675,1.26204e-05,10.3318,1.17315e+07,0.000880685,6.06038e+10,8.679e+10,1.00935,10,1.17315e+07
10.0,1.11111,Ni,103.279,2.29569,1.04721e-05,10.6608,1.04271e+07,0.00102241,5.55809e+10,9.20318e+10,0.773191,10,1.04271e+07
10.0,1.66667,YSZ_in_anode,179.487,12.6432,4.49782e-06,9.62405,5.41641e+06,0.00177683,2.60639e+10,31825949402.339,1.08647,10,5.41641e+06
10.0,2.22222,YSZ_electrolyte,173.64,12.8841,5.39935e-06,10.6709,6.20777e+06,0.00171895,3.31212e+10,4.10229e+10,1.57585,10,6.20777e+06
10.0,2.77778,YSZ_electrolyte,192.42,14.5537,6.16889e-06,9.47455,4.97389e+06,0.00190486,2.35627e+10,4.10887e+10,1.41338,10,4.97389e+06
10.0,3.33333,LSM,89.8923,7.98835,1.15069e-05,9.68501,1.08834e+07,0.000889888,5.27029e+10,7.34829e+10,0.983511,10,1.08834e+07
10.0,3.88889,LSM,83.2659,9.96043,1.23287e-05,9.13455,1.10817e+07,0.00082429,5.06133e+10,8.77641e+10,0.652878,10,1.10817e+07
10.0,4.44444,YSZ_in_cathode,220.737,13.7111,4.68708e-06,10.9003,4.98829e+06,0.00218518,2.71869e+10,3.40144e+10,0.946111,10,4.98829e+06
10.0,5.0,LSM,96.2876,10.0304,9.02649e-06,9.07293,9.5184e+06,0.000953199,4.31799e+10,5.27858e+10,0.862184,10,9.5184e+06